variable,macro,file,pattern,purpose,call
AGEGR1,%adsl_agegr,adsl_agegr.sas,numeric_range_group,Derive age group character variable from AGE with configurable cut points,"%adsl_agegr(inds=adsl, agevar=AGE, grpvar=AGEGR1, grpnvar=AGEGR1N, cuts=65|80, labels=<65|65-80|>80);"
TRT01P,%adsl_trtvar,adsl_trtvar.sas,codelist_decode,Derive treatment character variable and numeric code from ARM using a mapping table,"%adsl_trtvar(inds=adsl, srcvar=ARM, trtvar=TRT01P, trtnvar=TRT01PN, map=Placebo=0|Drug A 50mg=1|Drug A 100mg=2);"
TRT01AN,%adsl_trtvar,adsl_trtvar.sas,codelist_decode,Derive actual treatment numeric code from TRT01A using a mapping table,"%adsl_trtvar(inds=adsl, srcvar=TRT01A, trtvar=TRT01A, trtnvar=TRT01AN, map=Placebo=0|Drug A 50mg=1|Drug A 100mg=2);"
BMIBLGR1,%adsl_bmigrp,adsl_bmigrp.sas,numeric_range_group,Derive BMI group with built-in missing-value guard and configurable cut points,"%adsl_bmigrp(inds=adsl, bmivar=BMIBL, grpvar=BMIBLGR1, cuts=25|30, labels=<25|25-<30|>=30);"
DTHDT,%adsl_dtctodt,adsl_dtctodt.sas,date_conversion,"Convert DTHDTC ISO 8601 character to numeric SAS date, handling partial and missing","%adsl_dtctodt(inds=adsl, dtcvar=DTHDTC, dtvar=DTHDT, fmt=DATE9.);"
RFICDT,%adsl_dtctodt,adsl_dtctodt.sas,date_conversion,"Convert RFICDTC ISO 8601 character to numeric SAS date, handling partial and missing","%adsl_dtctodt(inds=adsl, dtcvar=RFICDTC, dtvar=RFICDT, fmt=DATE9.);"
COMPFL,%adsl_popflag,adsl_popflag.sas,condition_flag,Derive study completion Y/N flag from EOSSTT,"%adsl_popflag(inds=adsl, flagvar=COMPFL, cond=EOSSTT=""COMPLETED"", label=Study Completion Flag);"
SAFFL,%adsl_popflag,adsl_popflag.sas,condition_flag,Derive safety population Y/N flag from TRTSDT,"%adsl_popflag(inds=adsl, flagvar=SAFFL, cond=not missing(TRTSDT), label=Safety Population Flag);"
ITTFL,%adsl_popflag,adsl_popflag.sas,condition_flag,Derive ITT population Y/N flag from ARM,"%adsl_popflag(inds=adsl, flagvar=ITTFL, cond=not missing(ARM) and ARM ne ""Screen Failure"", label=Intent-To-Treat Population Flag);"
ENRLFL,%adsl_popflag,adsl_popflag.sas,condition_flag,Derive enrolled population Y/N flag from RFICDTC,"%adsl_popflag(inds=adsl, flagvar=ENRLFL, cond=not missing(RFICDTC), label=Enrolled Population Flag);"
RANDFL,%adsl_popflag,adsl_popflag.sas,condition_flag,Derive randomised population Y/N flag from RANDDT,"%adsl_popflag(inds=adsl, flagvar=RANDFL, cond=not missing(RANDDT), label=Randomised Population Flag);"
EPOCHFL,%adsl_popflag,adsl_popflag.sas,condition_flag,Derive entered treatment epoch Y/N flag from TRTEPSDT,"%adsl_popflag(inds=adsl, flagvar=EPOCHFL, cond=not missing(TRTEPSDT), label=Entered Treatment Epoch Flag);"
RANDDY,%adsl_studyday,adsl_studyday.sas,study_day,Derive day of randomisation relative to screening using CDISC --DY convention,"%adsl_studyday(inds=adsl, datevar=RANDDT, refvar=SCRPDT, dyvar=RANDDY, label=Day of Randomisation Relative to Screening);"
DTHDY,%adsl_studyday,adsl_studyday.sas,study_day,Derive day of death relative to first dose using CDISC --DY convention,"%adsl_studyday(inds=adsl, datevar=DTHDT, refvar=TRTSDT, dyvar=DTHDY, label=Day of Death Relative to First Dose);"
EOSDY,%adsl_studyday,adsl_studyday.sas,study_day,Derive day of end of study relative to first dose using CDISC --DY convention,"%adsl_studyday(inds=adsl, datevar=EOSDT, refvar=TRTSDT, dyvar=EOSDY, label=Day of End of Study Relative to First Dose);"
